Underground Proposed
Post-Project, Mile 7.65 to Mile 7.88
UND_P.FLD

 DIST    B Horz   B Vert   B PROD    B MAX   E Horz   E Vert   E PROD    E MAX
 (Ft)     (mG)     (mG)     (mG)      (mG)   (kV/m)   (kV/m)   (kV/m)   (V/m)
 ----    ------   ------   ------    -----   ------   ------   ------   ------
-150.00    2.025    0.385    2.061    2.038    0.001    0.030    0.030    0.030
-149.00    2.051    0.395    2.089    2.065    0.001    0.030    0.030    0.030
-148.00    2.078    0.405    2.117    2.093    0.001    0.031    0.031    0.031
-147.00    2.105    0.416    2.146    2.121    0.001    0.031    0.031    0.031
-146.00    2.133    0.427    2.175    2.149    0.001    0.031    0.031    0.031
-145.00    2.161    0.438    2.205    2.178    0.001    0.032    0.032    0.032
-144.00    2.189    0.449    2.235    2.208    0.001    0.032    0.032    0.032
-143.00    2.219    0.461    2.266    2.238    0.001    0.033    0.033    0.033
-142.00    2.248    0.474    2.298    2.269    0.001    0.033    0.033    0.033
-141.00    2.279    0.487    2.330    2.301    0.001    0.034    0.034    0.034
-140.00    2.310    0.500    2.363    2.333    0.001    0.034    0.034    0.034
-139.00    2.341    0.514    2.397    2.366    0.001    0.035    0.035    0.035
-138.00    2.373    0.528    2.431    2.400    0.001    0.035    0.035    0.035
-137.00    2.406    0.542    2.467    2.434    0.002    0.036    0.036    0.036
-136.00    2.440    0.558    2.503    2.469    0.002    0.036    0.036    0.036
-135.00    2.474    0.573    2.539    2.505    0.002    0.037    0.037    0.037
-134.00    2.509    0.589    2.577    2.542    0.002    0.037    0.037    0.037
-133.00    2.544    0.606    2.615    2.579    0.002    0.038    0.038    0.038
-132.00    2.580    0.623    2.655    2.617    0.002    0.038    0.038    0.038
-131.00    2.618    0.641    2.695    2.656    0.002    0.039    0.039    0.039
-130.00    2.655    0.660    2.736    2.696    0.002    0.039    0.039    0.039
-129.00    2.694    0.679    2.778    2.737    0.002    0.040    0.040    0.040
-128.00    2.733    0.699    2.821    2.779    0.002    0.041    0.041    0.041
-127.00    2.773    0.719    2.865    2.822    0.002    0.041    0.041    0.041
-126.00    2.814    0.740    2.910    2.865    0.002    0.042    0.042    0.042
-125.00    2.856    0.762    2.956    2.910    0.002    0.042    0.042    0.042
-124.00    2.899    0.785    3.004    2.956    0.002    0.043    0.043    0.043
-123.00    2.943    0.809    3.052    3.003    0.002    0.044    0.044    0.044
-122.00    2.987    0.833    3.101    3.051    0.002    0.044    0.044    0.044
-121.00    3.033    0.858    3.152    3.100    0.002    0.045    0.045    0.045
-120.00    3.080    0.884    3.204    3.150    0.002    0.046    0.046    0.046
-119.00    3.127    0.912    3.257    3.202    0.002    0.047    0.047    0.047
-118.00    3.176    0.940    3.312    3.254    0.002    0.047    0.047    0.047
-117.00    3.226    0.969    3.368    3.309    0.002    0.048    0.048    0.048
-116.00    3.276    0.999    3.425    3.364    0.002    0.049    0.049    0.049
-115.00    3.328    1.030    3.484    3.421    0.002    0.050    0.050    0.050
-114.00    3.382    1.063    3.545    3.479    0.002    0.050    0.050    0.050
-113.00    3.436    1.097    3.607    3.539    0.002    0.051    0.051    0.051
-112.00    3.491    1.132    3.670    3.600    0.003    0.052    0.052    0.052
-111.00    3.548    1.168    3.736    3.663    0.003    0.053    0.053    0.053
-110.00    3.606    1.206    3.803    3.727    0.003    0.054    0.054    0.054
-109.00    3.666    1.245    3.871    3.794    0.003    0.055    0.055    0.055
-108.00    3.727    1.286    3.942    3.862    0.003    0.056    0.056    0.056
-107.00    3.789    1.328    4.015    3.931    0.003    0.056    0.056    0.056
-106.00    3.852    1.372    4.089    4.003    0.003    0.057    0.057    0.057
-105.00    3.917    1.418    4.166    4.077    0.003    0.058    0.058    0.058
-104.00    3.984    1.466    4.245    4.152    0.003    0.059    0.059    0.059
-103.00    4.052    1.515    4.326    4.230    0.003    0.060    0.060    0.060
-102.00    4.122    1.567    4.410    4.310    0.003    0.061    0.061    0.061
-101.00    4.194    1.620    4.496    4.392    0.003    0.062    0.063    0.063
-100.00    4.267    1.676    4.584    4.476    0.003    0.063    0.064    0.064
 -99.00    4.342    1.734    4.675    4.563    0.003    0.065    0.065    0.065
 -98.00    4.418    1.794    4.769    4.653    0.003    0.066    0.066    0.066
 -97.00    4.497    1.857    4.865    4.745    0.004    0.067    0.067    0.067
 -96.00    4.577    1.923    4.965    4.839    0.004    0.068    0.068    0.068
 -95.00    4.660    1.991    5.067    4.937    0.004    0.069    0.069    0.069
 -94.00    4.744    2.062    5.173    5.037    0.004    0.070    0.071    0.071
 -93.00    4.830    2.137    5.282    5.141    0.004    0.072    0.072    0.072
 -92.00    4.919    2.214    5.394    5.247    0.004    0.073    0.073    0.073
 -91.00    5.010    2.295    5.510    5.357    0.004    0.074    0.074    0.074
 -90.00    5.102    2.379    5.630    5.471    0.004    0.076    0.076    0.076
 -89.00    5.198    2.467    5.753    5.587    0.004    0.077    0.077    0.077
 -88.00    5.295    2.559    5.881    5.708    0.004    0.078    0.078    0.078
 -87.00    5.395    2.655    6.013    5.833    0.005    0.080    0.080    0.080
 -86.00    5.497    2.755    6.149    5.961    0.005    0.081    0.081    0.081
 -85.00    5.602    2.860    6.290    6.094    0.005    0.083    0.083    0.083
 -84.00    5.709    2.970    6.436    6.231    0.005    0.084    0.084    0.084
 -83.00    5.819    3.084    6.586    6.372    0.005    0.086    0.086    0.086
 -82.00    5.932    3.204    6.742    6.519    0.005    0.087    0.087    0.087
 -81.00    6.047    3.330    6.903    6.670    0.005    0.089    0.089    0.089
 -80.00    6.166    3.461    7.071    6.826    0.006    0.091    0.091    0.091
 -79.00    6.287    3.599    7.244    6.988    0.006    0.092    0.092    0.092
 -78.00    6.411    3.743    7.423    7.156    0.006    0.094    0.094    0.094
 -77.00    6.537    3.894    7.609    7.329    0.006    0.096    0.096    0.096
 -76.00    6.667    4.052    7.802    7.509    0.006    0.097    0.098    0.097
 -75.00    6.800    4.217    8.002    7.695    0.006    0.099    0.099    0.099
 -74.00    6.937    4.391    8.210    7.888    0.007    0.101    0.101    0.101
 -73.00    7.076    4.574    8.425    8.088    0.007    0.103    0.103    0.103
 -72.00    7.218    4.765    8.649    8.296    0.007    0.105    0.105    0.105
 -71.00    7.364    4.966    8.882    8.511    0.007    0.107    0.107    0.107
 -70.00    7.513    5.177    9.124    8.734    0.008    0.109    0.109    0.109
 -69.00    7.665    5.398    9.375    8.966    0.008    0.111    0.111    0.111
 -68.00    7.821    5.631    9.637    9.207    0.008    0.113    0.113    0.113
 -67.00    7.980    5.876    9.910    9.457    0.009    0.115    0.115    0.115
 -66.00    8.142    6.133   10.193    9.718    0.009    0.117    0.117    0.117
 -65.00    8.307    6.404   10.489    9.988    0.010    0.119    0.119    0.119
 -64.00    8.476    6.688   10.797   10.270    0.010    0.121    0.122    0.121
 -63.00    8.647    6.988   11.118   10.563    0.011    0.123    0.124    0.124
 -62.00    8.822    7.303   11.453   10.868    0.012    0.126    0.126    0.126
 -61.00    9.000    7.635   11.802   11.186    0.012    0.128    0.129    0.128
 -60.00    9.181    7.984   12.167   11.517    0.013    0.130    0.131    0.131
 -59.00    9.364    8.352   12.548   11.863    0.014    0.133    0.134    0.133
 -58.00    9.550    8.740   12.946   12.223    0.015    0.135    0.136    0.136
 -57.00    9.739    9.149   13.362   12.599    0.016    0.138    0.139    0.138
 -56.00    9.930    9.579   13.797   12.991    0.017    0.141    0.142    0.141
 -55.00   10.122   10.034   14.253   13.400    0.018    0.144    0.145    0.144
 -54.00   10.317   10.512   14.729   13.828    0.020    0.147    0.148    0.147
 -53.00   10.513   11.017   15.228   14.275    0.021    0.150    0.152    0.150
 -52.00   10.710   11.550   15.751   14.743    0.023    0.153    0.155    0.154
 -51.00   10.908   12.111   16.299   15.232    0.025    0.157    0.159    0.158
 -50.00   11.106   12.703   16.873   15.743    0.027    0.161    0.164    0.162
 -49.00   11.304   13.327   17.475   16.278    0.030    0.166    0.168    0.166
 -48.00   11.502   13.985   18.107   16.838    0.032    0.170    0.174    0.171
 -47.00   11.699   14.679   18.770   17.425    0.035    0.176    0.179    0.177
 -46.00   11.895   15.410   19.467   18.040    0.039    0.182    0.186    0.183
 -45.00   12.090   16.180   20.198   18.684    0.042    0.189    0.193    0.190
 -44.00   12.284   16.990   20.966   19.359    0.046    0.196    0.202    0.198
 -43.00   12.477   17.843   21.772   20.066    0.051    0.205    0.211    0.207
 -42.00   12.670   18.739   22.620   20.808    0.055    0.215    0.222    0.217
 -41.00   12.863   19.680   23.511   21.585    0.061    0.226    0.234    0.229
 -40.00   13.058   20.668   24.447   22.400    0.067    0.239    0.248    0.243
 -39.00   13.257   21.702   25.431   23.255    0.073    0.254    0.264    0.258
 -38.00   13.465   22.783   26.465   24.150    0.080    0.270    0.282    0.276
 -37.00   13.685   23.912   27.551   25.088    0.088    0.290    0.303    0.296
 -36.00   13.925   25.087   28.692   26.071    0.096    0.311    0.326    0.319
 -35.00   14.194   26.306   29.891   27.100    0.105    0.335    0.352    0.345
 -34.00   14.501   27.567   31.148   28.177    0.115    0.363    0.381    0.374
 -33.00   14.863   28.866   32.468   29.303    0.126    0.394    0.413    0.406
 -32.00   15.296   30.197   33.851   30.478    0.137    0.428    0.450    0.443
 -31.00   15.822   31.554   35.299   31.704    0.149    0.467    0.490    0.483
 -30.00   16.464   32.927   36.813   32.980    0.162    0.510    0.535    0.528
 -29.00   17.248   34.303   38.395   34.307    0.176    0.557    0.584    0.577
 -28.00   18.201   35.670   40.045   35.684    0.190    0.609    0.638    0.631
 -27.00   19.349   37.008   41.761   37.107    0.204    0.666    0.697    0.690
 -26.00   20.718   38.299   43.544   38.575    0.218    0.728    0.760    0.753
 -25.00   22.326   39.519   45.389   40.083    0.233    0.795    0.829    0.822
 -24.00   24.188   40.641   47.294   41.625    0.247    0.867    0.902    0.895
 -23.00   26.310   41.637   49.252   43.195    0.260    0.944    0.979    0.972
 -22.00   28.688   42.478   51.257   44.782    0.271    1.026    1.061    1.054
 -21.00   31.307   43.136   53.299   46.376    0.281    1.111    1.146    1.139
 -20.00   34.142   43.586   55.367   47.963    0.288    1.199    1.233    1.226
 -19.00   37.152   43.814   57.445   49.526    0.292    1.289    1.322    1.315
 -18.00   40.282   43.817   59.519   51.049    0.292    1.380    1.410    1.403
 -17.00   43.462   43.610   61.569   52.509    0.288    1.469    1.497    1.490
 -16.00   46.607   43.238   63.575   53.884    0.281    1.555    1.581    1.573
 -15.00   49.620   42.777   65.513   55.153    0.271    1.636    1.658    1.650
 -14.00   52.394   42.337   67.361   56.290    0.259    1.709    1.729    1.719
 -13.00   54.821   42.059   69.096   57.273    0.249    1.772    1.789    1.778
 -12.00   56.797   42.097   70.697   58.082    0.243    1.822    1.839    1.826
 -11.00   58.234   42.585   72.143   58.700    0.247    1.859    1.875    1.861
 -10.00   59.067   43.608   73.421   59.116    0.261    1.881    1.899    1.881
  -9.00   59.270   45.166   74.518   59.327    0.286    1.887    1.909    1.887
  -8.00   58.861   47.171   75.430   59.337    0.319    1.879    1.906    1.879
  -7.00   57.910   49.459   76.157   59.164    0.357    1.858    1.892    1.860
  -6.00   56.543   51.827   76.702   58.844    0.395    1.828    1.871    1.831
  -5.00   54.936   54.058   77.073   58.443    0.431    1.793    1.844    1.796
  -4.00   53.312   55.948   77.281   58.074    0.461    1.757    1.816    1.759
  -3.00   51.914   57.323   77.337   57.901    0.484    1.725    1.792    1.727
  -2.00   50.974   58.048   77.252   58.049    0.497    1.702    1.773    1.703
  -1.00   50.669   58.027   77.035   58.492    0.500    1.692    1.764    1.692
   0.00   51.079   57.211   76.695   59.106    0.492    1.696    1.766    1.696
   1.00   52.169   55.592   76.237   59.784    0.474    1.713    1.777    1.714
   2.00   53.796   53.210   75.666   60.460    0.446    1.741    1.797    1.743
   3.00   55.753   50.146   74.987   61.103    0.408    1.775    1.821    1.778
   4.00   57.808   46.523   74.204   61.693    0.363    1.811    1.848    1.814
   5.00   59.744   42.506   73.322   62.223    0.313    1.845    1.871    1.847
   6.00   61.385   38.292   72.349   62.689    0.261    1.871    1.889    1.871
   7.00   62.605   34.100   71.290   63.084    0.209    1.885    1.897    1.886
   8.00   63.336   30.153   70.148   63.395    0.165    1.887    1.894    1.887
   9.00   63.560   26.644   68.919   63.595    0.135    1.874    1.879    1.875
  10.00   63.295   23.685   67.582   63.631    0.128    1.847    1.851    1.849
  11.00   62.578   21.263   66.092   63.411    0.141    1.806    1.811    1.810
  12.00   61.426   19.237   64.368   62.797    0.164    1.752    1.760    1.760
  13.00   59.802   17.421   62.288   61.589    0.189    1.688    1.699    1.699
  14.00   57.565   15.774   59.687   59.538    0.211    1.616    1.629    1.629
  15.00   54.464   14.616   56.391   56.383    0.229    1.537    1.554    1.554
  16.00   50.202   14.572   52.274   51.946    0.242    1.455    1.475    1.474
  17.00   44.630   15.872   47.368   46.312    0.249    1.370    1.392    1.391
  18.00   38.017   17.800   41.978   40.123    0.252    1.285    1.309    1.308
  19.00   31.206   19.368   36.728   34.808    0.251    1.201    1.227    1.225
  20.00   25.386   20.197   32.440   31.573    0.246    1.119    1.145    1.143
  21.00   21.378   20.716   29.769   29.746    0.239    1.039    1.066    1.064
  22.00   18.995   21.625   28.783   28.341    0.230    0.964    0.991    0.988
  23.00   17.372   23.169   28.958   27.273    0.219    0.892    0.918    0.916
  24.00   15.828   25.029   29.614   26.966    0.208    0.824    0.850    0.847
  25.00   14.143   26.758   30.266   27.517    0.196    0.761    0.786    0.783
  26.00   12.364   28.083   30.684   28.373    0.184    0.701    0.725    0.722
  27.00   10.603   28.921   30.803   29.041    0.172    0.646    0.669    0.666
  28.00    8.952   29.308   30.644   29.362    0.160    0.595    0.616    0.614
  29.00    7.460   29.324   30.258   29.350    0.149    0.548    0.568    0.565
  30.00    6.145   29.057   29.700   29.069    0.138    0.505    0.523    0.520
  31.00    5.008   28.585   29.021   28.589    0.128    0.464    0.482    0.479
  32.00    4.042   27.970   28.260   27.970    0.118    0.427    0.443    0.441
  33.00    3.244   27.258   27.450   27.259    0.109    0.393    0.408    0.406
  34.00    2.615   26.485   26.614   26.491    0.101    0.362    0.376    0.374
  35.00    2.169   25.677   25.769   25.693    0.093    0.334    0.346    0.344
  36.00    1.921   24.853   24.928   24.883    0.086    0.307    0.319    0.317
  37.00    1.864   24.026   24.099   24.074    0.079    0.283    0.294    0.292
  38.00    1.955   23.206   23.288   23.276    0.073    0.261    0.271    0.269
  39.00    2.134   22.398   22.500   22.495    0.067    0.241    0.250    0.248
  40.00    2.354   21.609   21.737   21.735    0.062    0.222    0.231    0.229
  41.00    2.585   20.840   21.000   21.000    0.057    0.205    0.213    0.211
  42.00    2.813   20.094   20.290   20.289    0.053    0.190    0.197    0.195
  43.00    3.027   19.372   19.607   19.606    0.048    0.176    0.182    0.180
  44.00    3.226   18.675   18.952   18.948    0.045    0.163    0.169    0.167
  45.00    3.406   18.004   18.323   18.317    0.041    0.151    0.156    0.155
  46.00    3.569   17.357   17.720   17.711    0.038    0.140    0.145    0.144
  47.00    3.713   16.735   17.142   17.131    0.035    0.130    0.135    0.133
  48.00    3.841   16.137   16.588   16.574    0.033    0.121    0.125    0.124
  49.00    3.953   15.562   16.057   16.041    0.030    0.113    0.117    0.115
  50.00    4.050   15.011   15.548   15.531    0.028    0.106    0.109    0.108
  51.00    4.134   14.482   15.061   15.042    0.026    0.099    0.102    0.101
  52.00    4.205   13.974   14.593   14.573    0.024    0.093    0.096    0.094
  53.00    4.264   13.488   14.145   14.124    0.022    0.087    0.090    0.089
  54.00    4.312   13.021   13.716   13.693    0.021    0.082    0.085    0.083
  55.00    4.351   12.573   13.304   13.281    0.019    0.078    0.080    0.079
  56.00    4.380   12.143   12.909   12.885    0.018    0.073    0.076    0.074
  57.00    4.402   11.732   12.530   12.505    0.017    0.070    0.072    0.071
  58.00    4.416   11.337   12.166   12.141    0.015    0.066    0.068    0.067
  59.00    4.423   10.958   11.817   11.791    0.014    0.063    0.065    0.064
  60.00    4.424   10.595   11.481   11.456    0.013    0.061    0.062    0.061
  61.00    4.420   10.246   11.159   11.133    0.012    0.058    0.060    0.059
  62.00    4.411    9.912   10.849   10.823    0.012    0.056    0.057    0.057
  63.00    4.397    9.591   10.551   10.525    0.011    0.054    0.055    0.055
  64.00    4.380    9.284   10.265   10.239    0.010    0.053    0.054    0.053
  65.00    4.358    8.988    9.989    9.964    0.009    0.051    0.052    0.051
  66.00    4.334    8.705    9.724    9.699    0.009    0.050    0.050    0.050
  67.00    4.306    8.432    9.468    9.443    0.008    0.048    0.049    0.049
  68.00    4.276    8.171    9.222    9.198    0.008    0.047    0.048    0.047
  69.00    4.244    7.919    8.985    8.961    0.007    0.046    0.047    0.046
  70.00    4.210    7.678    8.757    8.733    0.007    0.045    0.046    0.045
  71.00    4.174    7.446    8.536    8.513    0.006    0.044    0.045    0.045
  72.00    4.137    7.223    8.324    8.301    0.006    0.044    0.044    0.044
  73.00    4.098    7.009    8.119    8.096    0.006    0.043    0.043    0.043
  74.00    4.058    6.802    7.921    7.899    0.005    0.042    0.043    0.042
  75.00    4.017    6.604    7.730    7.708    0.005    0.042    0.042    0.042
  76.00    3.976    6.413    7.545    7.524    0.005    0.041    0.041    0.041
  77.00    3.933    6.229    7.367    7.347    0.004    0.040    0.041    0.041
  78.00    3.890    6.052    7.195    7.175    0.004    0.040    0.040    0.040
  79.00    3.847    5.882    7.028    7.009    0.004    0.039    0.040    0.039
  80.00    3.804    5.718    6.867    6.848    0.004    0.039    0.039    0.039
  81.00    3.760    5.560    6.712    6.693    0.004    0.038    0.039    0.038
  82.00    3.716    5.408    6.561    6.543    0.003    0.038    0.038    0.038
  83.00    3.672    5.261    6.415    6.397    0.003    0.038    0.038    0.038
  84.00    3.628    5.119    6.274    6.257    0.003    0.037    0.037    0.037
  85.00    3.584    4.982    6.137    6.120    0.003    0.037    0.037    0.037
  86.00    3.540    4.851    6.005    5.988    0.003    0.036    0.036    0.036
  87.00    3.496    4.724    5.876    5.860    0.003    0.036    0.036    0.036
  88.00    3.452    4.601    5.752    5.736    0.003    0.035    0.036    0.036
  89.00    3.409    4.482    5.631    5.616    0.003    0.035    0.035    0.035
  90.00    3.366    4.368    5.515    5.500    0.002    0.035    0.035    0.035
  91.00    3.324    4.257    5.401    5.387    0.002    0.034    0.034    0.034
  92.00    3.281    4.150    5.291    5.277    0.002    0.034    0.034    0.034
  93.00    3.240    4.047    5.184    5.170    0.002    0.034    0.034    0.034
  94.00    3.198    3.947    5.080    5.067    0.002    0.033    0.033    0.033
  95.00    3.157    3.851    4.980    4.967    0.002    0.033    0.033    0.033
  96.00    3.117    3.757    4.882    4.869    0.002    0.032    0.033    0.032
  97.00    3.076    3.667    4.787    4.774    0.002    0.032    0.032    0.032
  98.00    3.037    3.580    4.694    4.682    0.002    0.032    0.032    0.032
  99.00    2.998    3.495    4.605    4.593    0.002    0.031    0.031    0.031
 100.00    2.959    3.413    4.517    4.506    0.002    0.031    0.031    0.031
 101.00    2.921    3.334    4.432    4.421    0.002    0.031    0.031    0.031
 102.00    2.883    3.257    4.350    4.339    0.002    0.030    0.030    0.030
 103.00    2.846    3.183    4.269    4.259    0.002    0.030    0.030    0.030
 104.00    2.809    3.111    4.191    4.181    0.002    0.030    0.030    0.030
 105.00    2.773    3.041    4.115    4.105    0.001    0.029    0.029    0.029
 106.00    2.737    2.973    4.041    4.031    0.001    0.029    0.029    0.029
 107.00    2.702    2.907    3.969    3.960    0.001    0.029    0.029    0.029
 108.00    2.667    2.843    3.899    3.890    0.001    0.028    0.028    0.028
 109.00    2.633    2.782    3.830    3.821    0.001    0.028    0.028    0.028
 110.00    2.599    2.722    3.763    3.755    0.001    0.028    0.028    0.028
 111.00    2.566    2.663    3.698    3.690    0.001    0.028    0.028    0.028
 112.00    2.534    2.607    3.635    3.627    0.001    0.027    0.027    0.027
 113.00    2.501    2.552    3.573    3.565    0.001    0.027    0.027    0.027
 114.00    2.470    2.498    3.513    3.505    0.001    0.027    0.027    0.027
 115.00    2.439    2.447    3.454    3.447    0.001    0.026    0.026    0.026
 116.00    2.408    2.396    3.397    3.390    0.001    0.026    0.026    0.026
 117.00    2.378    2.347    3.341    3.334    0.001    0.026    0.026    0.026
 118.00    2.348    2.300    3.286    3.280    0.001    0.025    0.025    0.025
 119.00    2.318    2.254    3.233    3.226    0.001    0.025    0.025    0.025
 120.00    2.290    2.209    3.181    3.175    0.001    0.025    0.025    0.025
 121.00    2.261    2.165    3.130    3.124    0.001    0.025    0.025    0.025
 122.00    2.233    2.122    3.081    3.075    0.001    0.024    0.024    0.024
 123.00    2.206    2.081    3.032    3.026    0.001    0.024    0.024    0.024
 124.00    2.179    2.041    2.985    2.979    0.001    0.024    0.024    0.024
 125.00    2.152    2.001    2.939    2.933    0.001    0.024    0.024    0.024
 126.00    2.126    1.963    2.894    2.888    0.001    0.023    0.023    0.023
 127.00    2.100    1.926    2.849    2.844    0.001    0.023    0.023    0.023
 128.00    2.074    1.890    2.806    2.801    0.001    0.023    0.023    0.023
 129.00    2.049    1.855    2.764    2.759    0.001    0.023    0.023    0.023
 130.00    2.025    1.820    2.723    2.718    0.001    0.022    0.022    0.022
 131.00    2.001    1.787    2.682    2.677    0.001    0.022    0.022    0.022
 132.00    1.977    1.754    2.643    2.638    0.001    0.022    0.022    0.022
 133.00    1.953    1.722    2.604    2.600    0.001    0.022    0.022    0.022
 134.00    1.930    1.691    2.566    2.562    0.001    0.021    0.021    0.021
 135.00    1.907    1.661    2.529    2.525    0.001    0.021    0.021    0.021
 136.00    1.885    1.632    2.493    2.489    0.001    0.021    0.021    0.021
 137.00    1.863    1.603    2.458    2.454    0.001    0.021    0.021    0.021
 138.00    1.841    1.575    2.423    2.419    0.001    0.021    0.021    0.021
 139.00    1.820    1.548    2.389    2.385    0.001    0.020    0.020    0.020
 140.00    1.799    1.521    2.356    2.352    0.001    0.020    0.020    0.020
 141.00    1.778    1.495    2.323    2.319    0.001    0.020    0.020    0.020
 142.00    1.758    1.469    2.291    2.287    0.001    0.020    0.020    0.020
 143.00    1.738    1.445    2.260    2.256    0.001    0.019    0.019    0.019
 144.00    1.718    1.420    2.229    2.226    0.001    0.019    0.019    0.019
 145.00    1.699    1.397    2.199    2.196    0.001    0.019    0.019    0.019
 146.00    1.680    1.373    2.170    2.166    0.001    0.019    0.019    0.019
 147.00    1.661    1.351    2.141    2.138    0.001    0.019    0.019    0.019
 148.00    1.642    1.329    2.113    2.109    0.001    0.018    0.018    0.018
 149.00    1.624    1.307    2.085    2.082    0.001    0.018    0.018    0.018
 150.00    1.606    1.286    2.058    2.055    0.001    0.018    0.018    0.018
